Apr. 13, 2017   19:17:35
Sweep-Step Functions
File: e:\高等物化实验1\20170413\420.txt
Data Source:  Experiment
Instrument Model:  CHI842B
Data Proc:  Smoothing
Header: 
Note: 


Segment = 2
Step E (V) = 1.15
Step Time (s) = 30

Segment = 4
Step E (V) = -0.61
Step Time (s) = 3

Segment = 6
Step E (V) = -0.42
Step Time (s) = 600

Sweep Smpl Int (V) = 0.001
Step Smpl Int (s) = 0.5
Quiet Time (sec) = 0
Sensitivity (A/V) = 1e-4


Potential/V, i/A  or  Time/sec, i/A

Segment 1:
0.500, -2.73163e-4
1.000, -2.21243e-4
1.500, -1.79973e-4
2.000, -1.49353e-4
2.500, -1.35467e-4
3.000, -1.24260e-4
3.500, -1.15373e-4
4.000, -1.08164e-4
4.500, -1.02171e-4
5.000, -9.71127e-5
5.500, -9.27664e-5
6.000, -8.89899e-5
6.500, -8.56908e-5
7.000, -8.27454e-5
7.500, -8.00915e-5
8.000, -7.77004e-5
8.500, -7.55425e-5
9.000, -7.35607e-5
9.500, -7.17440e-5
10.000, -7.00590e-5
10.500, -6.84963e-5
11.000, -6.70560e-5
11.500, -6.57512e-5
12.000, -6.45124e-5
12.500, -6.33453e-5
13.000, -6.22496e-5
13.500, -6.12169e-5
14.000, -6.02413e-5
14.500, -5.93263e-5
15.000, -5.84535e-5
15.500, -5.76262e-5
16.000, -5.68458e-5
16.500, -5.60913e-5
17.000, -5.53469e-5
17.500, -5.46307e-5
18.000, -5.39486e-5
18.500, -5.33051e-5
19.000, -5.27123e-5
19.500, -5.21439e-5
20.000, -5.15840e-5
20.500, -5.10444e-5
21.000, -5.05224e-5
21.500, -5.00227e-5
22.000, -4.95423e-5
22.500, -4.90840e-5
23.000, -4.86355e-5
23.500, -4.82051e-5
24.000, -4.77803e-5
24.500, -4.73522e-5
25.000, -4.69265e-5
25.500, -4.65169e-5
26.000, -4.61342e-5
26.500, -4.57819e-5
27.000, -4.54387e-5
27.500, -4.50965e-5
28.000, -4.47637e-5
28.500, -4.44406e-5
29.000, -4.41298e-5
29.500, -4.38307e-5
30.000, -4.35433e-5

Segment 3:
0.500, 5.44581e-4
1.000, 4.39878e-4
1.500, 3.72535e-4
2.000, 3.51724e-4
2.500, 3.42168e-4
3.000, 3.50372e-4

Segment 5:
0.500, 1.51522e-4
1.000, 1.44281e-4
1.500, 1.37634e-4
2.000, 1.31581e-4
2.500, 1.26130e-4
3.000, 1.21285e-4
3.500, 1.16966e-4
4.000, 1.13073e-4
4.500, 1.09548e-4
5.000, 1.06346e-4
5.500, 1.03426e-4
6.000, 1.00743e-4
6.500, 9.82984e-5
7.000, 9.60092e-5
7.500, 9.38637e-5
8.000, 9.18572e-5
8.500, 8.99824e-5
9.000, 8.82119e-5
9.500, 8.65528e-5
10.000, 8.49762e-5
10.500, 8.35054e-5
11.000, 8.21429e-5
11.500, 8.08898e-5
12.000, 7.96840e-5
12.500, 7.85171e-5
13.000, 7.73866e-5
13.500, 7.63058e-5
14.000, 7.52762e-5
14.500, 7.43053e-5
15.000, 7.33673e-5
15.500, 7.24749e-5
16.000, 7.16190e-5
16.500, 7.07816e-5
17.000, 6.99684e-5
17.500, 6.91893e-5
18.000, 6.84411e-5
18.500, 6.77352e-5
19.000, 6.70684e-5
19.500, 6.64249e-5
20.000, 6.58087e-5
20.500, 6.52190e-5
21.000, 6.46375e-5
21.500, 6.40657e-5
22.000, 6.35163e-5
22.500, 6.29681e-5
23.000, 6.24229e-5
23.500, 6.18905e-5
24.000, 6.13738e-5
24.500, 6.08804e-5
25.000, 6.04174e-5
25.500, 5.99674e-5
26.000, 5.95277e-5
26.500, 5.91087e-5
27.000, 5.86990e-5
27.500, 5.82969e-5
28.000, 5.78997e-5
28.500, 5.75110e-5
29.000, 5.71333e-5
29.500, 5.67716e-5
30.000, 5.64108e-5
30.500, 5.60682e-5
31.000, 5.57392e-5
31.500, 5.54221e-5
32.000, 5.51191e-5
32.500, 5.48020e-5
33.000, 5.44653e-5
33.500, 5.41325e-5
34.000, 5.38057e-5
34.500, 5.34959e-5
35.000, 5.32227e-5
35.500, 5.29674e-5
36.000, 5.27168e-5
36.500, 5.24701e-5
37.000, 5.22158e-5
37.500, 5.19540e-5
38.000, 5.17029e-5
38.500, 5.14630e-5
39.000, 5.12310e-5
39.500, 5.10033e-5
40.000, 5.07734e-5
40.500, 5.05357e-5
41.000, 5.03004e-5
41.500, 5.00748e-5
42.000, 4.98605e-5
42.500, 4.96512e-5
43.000, 4.94455e-5
43.500, 4.92443e-5
44.000, 4.90533e-5
44.500, 4.88720e-5
45.000, 4.86917e-5
45.500, 4.85033e-5
46.000, 4.83112e-5
46.500, 4.81269e-5
47.000, 4.79485e-5
47.500, 4.77739e-5
48.000, 4.76028e-5
48.500, 4.74302e-5
49.000, 4.72562e-5
49.500, 4.70916e-5
50.000, 4.69301e-5
50.500, 4.67623e-5
51.000, 4.65863e-5
51.500, 4.64029e-5
52.000, 4.62199e-5
52.500, 4.60471e-5
53.000, 4.58868e-5
53.500, 4.57295e-5
54.000, 4.55760e-5
54.500, 4.54243e-5
55.000, 4.52784e-5
55.500, 4.51346e-5
56.000, 4.49932e-5
56.500, 4.48551e-5
57.000, 4.47186e-5
57.500, 4.45773e-5
58.000, 4.44449e-5
58.500, 4.43155e-5
59.000, 4.41900e-5
59.500, 4.40710e-5
60.000, 4.39472e-5
60.500, 4.38221e-5
61.000, 4.37023e-5
61.500, 4.35831e-5
62.000, 4.34645e-5
62.500, 4.33450e-5
63.000, 4.32244e-5
63.500, 4.31089e-5
64.000, 4.29931e-5
64.500, 4.28769e-5
65.000, 4.27548e-5
65.500, 4.26331e-5
66.000, 4.25150e-5
66.500, 4.23935e-5
67.000, 4.22891e-5
67.500, 4.22021e-5
68.000, 4.21289e-5
68.500, 4.20671e-5
69.000, 4.20027e-5
69.500, 4.19167e-5
70.000, 4.18252e-5
70.500, 4.17252e-5
71.000, 4.16257e-5
71.500, 4.15273e-5
72.000, 4.14296e-5
72.500, 4.13308e-5
73.000, 4.12352e-5
73.500, 4.11425e-5
74.000, 4.10486e-5
74.500, 4.09744e-5
75.000, 4.09130e-5
75.500, 4.08505e-5
76.000, 4.07902e-5
76.500, 4.07220e-5
77.000, 4.06358e-5
77.500, 4.05516e-5
78.000, 4.04679e-5
78.500, 4.03817e-5
79.000, 4.03038e-5
79.500, 4.02283e-5
80.000, 4.01559e-5
80.500, 4.00741e-5
81.000, 4.00015e-5
81.500, 3.99361e-5
82.000, 3.98786e-5
82.500, 3.98230e-5
83.000, 3.97644e-5
83.500, 3.96926e-5
84.000, 3.96202e-5
84.500, 3.95431e-5
85.000, 3.94686e-5
85.500, 3.93980e-5
86.000, 3.93283e-5
86.500, 3.92585e-5
87.000, 3.91905e-5
87.500, 3.91188e-5
88.000, 3.90421e-5
88.500, 3.89641e-5
89.000, 3.88832e-5
89.500, 3.87972e-5
90.000, 3.87198e-5
90.500, 3.86620e-5
91.000, 3.86201e-5
91.500, 3.85872e-5
92.000, 3.85506e-5
92.500, 3.84955e-5
93.000, 3.84318e-5
93.500, 3.83714e-5
94.000, 3.83143e-5
94.500, 3.82562e-5
95.000, 3.81992e-5
95.500, 3.81392e-5
96.000, 3.80786e-5
96.500, 3.80190e-5
97.000, 3.79667e-5
97.500, 3.79198e-5
98.000, 3.78786e-5
98.500, 3.78334e-5
99.000, 3.77844e-5
99.500, 3.77351e-5
100.000, 3.76867e-5
100.500, 3.76366e-5
101.000, 3.75860e-5
101.500, 3.75296e-5
102.000, 3.74768e-5
102.500, 3.74289e-5
103.000, 3.73799e-5
103.500, 3.73294e-5
104.000, 3.72727e-5
104.500, 3.72252e-5
105.000, 3.71838e-5
105.500, 3.71488e-5
106.000, 3.71141e-5
106.500, 3.70709e-5
107.000, 3.70164e-5
107.500, 3.69686e-5
108.000, 3.69203e-5
108.500, 3.68718e-5
109.000, 3.68228e-5
109.500, 3.67672e-5
110.000, 3.67138e-5
110.500, 3.66644e-5
111.000, 3.66174e-5
111.500, 3.65675e-5
112.000, 3.65156e-5
112.500, 3.64614e-5
113.000, 3.64071e-5
113.500, 3.63593e-5
114.000, 3.63166e-5
114.500, 3.62746e-5
115.000, 3.62322e-5
115.500, 3.61878e-5
116.000, 3.61396e-5
116.500, 3.60935e-5
117.000, 3.60503e-5
117.500, 3.60056e-5
118.000, 3.59620e-5
118.500, 3.59119e-5
119.000, 3.58694e-5
119.500, 3.58311e-5
120.000, 3.58027e-5
120.500, 3.57756e-5
121.000, 3.57471e-5
121.500, 3.57059e-5
122.000, 3.56631e-5
122.500, 3.56191e-5
123.000, 3.55802e-5
123.500, 3.55422e-5
124.000, 3.55066e-5
124.500, 3.54672e-5
125.000, 3.54234e-5
125.500, 3.53822e-5
126.000, 3.53402e-5
126.500, 3.53022e-5
127.000, 3.52676e-5
127.500, 3.52286e-5
128.000, 3.51927e-5
128.500, 3.51676e-5
129.000, 3.51485e-5
129.500, 3.51333e-5
130.000, 3.51166e-5
130.500, 3.50855e-5
131.000, 3.50481e-5
131.500, 3.50064e-5
132.000, 3.49647e-5
132.500, 3.49227e-5
133.000, 3.48857e-5
133.500, 3.48471e-5
134.000, 3.48066e-5
134.500, 3.47624e-5
135.000, 3.47225e-5
135.500, 3.46872e-5
136.000, 3.46537e-5
136.500, 3.46195e-5
137.000, 3.45841e-5
137.500, 3.45470e-5
138.000, 3.45109e-5
138.500, 3.44735e-5
139.000, 3.44329e-5
139.500, 3.43940e-5
140.000, 3.43566e-5
140.500, 3.43209e-5
141.000, 3.42865e-5
141.500, 3.42476e-5
142.000, 3.42153e-5
142.500, 3.41824e-5
143.000, 3.41613e-5
143.500, 3.41489e-5
144.000, 3.41366e-5
144.500, 3.41165e-5
145.000, 3.40904e-5
145.500, 3.40590e-5
146.000, 3.40349e-5
146.500, 3.40229e-5
147.000, 3.40139e-5
147.500, 3.40123e-5
148.000, 3.40032e-5
148.500, 3.39887e-5
149.000, 3.39591e-5
149.500, 3.39258e-5
150.000, 3.38857e-5
150.500, 3.38521e-5
151.000, 3.38250e-5
151.500, 3.37996e-5
152.000, 3.37731e-5
152.500, 3.37501e-5
153.000, 3.37224e-5
153.500, 3.36996e-5
154.000, 3.36825e-5
154.500, 3.36636e-5
155.000, 3.36434e-5
155.500, 3.36210e-5
156.000, 3.35951e-5
156.500, 3.35702e-5
157.000, 3.35421e-5
157.500, 3.35148e-5
158.000, 3.34874e-5
158.500, 3.34588e-5
159.000, 3.34322e-5
159.500, 3.34022e-5
160.000, 3.33682e-5
160.500, 3.33366e-5
161.000, 3.33034e-5
161.500, 3.32728e-5
162.000, 3.32430e-5
162.500, 3.32172e-5
163.000, 3.31994e-5
163.500, 3.31881e-5
164.000, 3.31825e-5
164.500, 3.31735e-5
165.000, 3.31594e-5
165.500, 3.31427e-5
166.000, 3.31248e-5
166.500, 3.31033e-5
167.000, 3.30844e-5
167.500, 3.30587e-5
168.000, 3.30307e-5
168.500, 3.30071e-5
169.000, 3.29839e-5
169.500, 3.29633e-5
170.000, 3.29410e-5
170.500, 3.29158e-5
171.000, 3.28863e-5
171.500, 3.28581e-5
172.000, 3.28281e-5
172.500, 3.28044e-5
173.000, 3.27807e-5
173.500, 3.27629e-5
174.000, 3.27436e-5
174.500, 3.27218e-5
175.000, 3.26935e-5
175.500, 3.26685e-5
176.000, 3.26434e-5
176.500, 3.26213e-5
177.000, 3.25984e-5
177.500, 3.25791e-5
178.000, 3.25582e-5
178.500, 3.25408e-5
179.000, 3.25226e-5
179.500, 3.24988e-5
180.000, 3.24704e-5
180.500, 3.24433e-5
181.000, 3.24162e-5
181.500, 3.23963e-5
182.000, 3.23776e-5
182.500, 3.23562e-5
183.000, 3.23337e-5
183.500, 3.23130e-5
184.000, 3.22905e-5
184.500, 3.22701e-5
185.000, 3.22483e-5
185.500, 3.22250e-5
186.000, 3.22046e-5
186.500, 3.21869e-5
187.000, 3.21681e-5
187.500, 3.21483e-5
188.000, 3.21279e-5
188.500, 3.21048e-5
189.000, 3.20786e-5
189.500, 3.20668e-5
190.000, 3.20634e-5
190.500, 3.20615e-5
191.000, 3.20517e-5
191.500, 3.20317e-5
192.000, 3.19986e-5
192.500, 3.19711e-5
193.000, 3.19502e-5
193.500, 3.19302e-5
194.000, 3.19099e-5
194.500, 3.18898e-5
195.000, 3.18670e-5
195.500, 3.18416e-5
196.000, 3.18223e-5
196.500, 3.18050e-5
197.000, 3.17882e-5
197.500, 3.17707e-5
198.000, 3.17502e-5
198.500, 3.17285e-5
199.000, 3.17055e-5
199.500, 3.16890e-5
200.000, 3.16718e-5
200.500, 3.16575e-5
201.000, 3.16408e-5
201.500, 3.16238e-5
202.000, 3.16018e-5
202.500, 3.15835e-5
203.000, 3.15676e-5
203.500, 3.15561e-5
204.000, 3.15440e-5
204.500, 3.15299e-5
205.000, 3.15129e-5
205.500, 3.14953e-5
206.000, 3.14782e-5
206.500, 3.14637e-5
207.000, 3.14516e-5
207.500, 3.14418e-5
208.000, 3.14366e-5
208.500, 3.14339e-5
209.000, 3.14285e-5
209.500, 3.14203e-5
210.000, 3.14111e-5
210.500, 3.13979e-5
211.000, 3.13871e-5
211.500, 3.13792e-5
212.000, 3.13750e-5
212.500, 3.13714e-5
213.000, 3.13702e-5
213.500, 3.13741e-5
214.000, 3.13797e-5
214.500, 3.13883e-5
215.000, 3.13993e-5
215.500, 3.14102e-5
216.000, 3.14227e-5
216.500, 3.14461e-5
217.000, 3.14694e-5
217.500, 3.14953e-5
218.000, 3.15222e-5
218.500, 3.15506e-5
219.000, 3.15801e-5
219.500, 3.16182e-5
220.000, 3.16628e-5
220.500, 3.17154e-5
221.000, 3.17738e-5
221.500, 3.18374e-5
222.000, 3.19020e-5
222.500, 3.19761e-5
223.000, 3.20547e-5
223.500, 3.21387e-5
224.000, 3.22234e-5
224.500, 3.23116e-5
225.000, 3.24043e-5
225.500, 3.25088e-5
226.000, 3.26211e-5
226.500, 3.27428e-5
227.000, 3.28643e-5
227.500, 3.30121e-5
228.000, 3.31821e-5
228.500, 3.33647e-5
229.000, 3.35524e-5
229.500, 3.37348e-5
230.000, 3.39040e-5
230.500, 3.40860e-5
231.000, 3.42774e-5
231.500, 3.44788e-5
232.000, 3.46945e-5
232.500, 3.49186e-5
233.000, 3.51510e-5
233.500, 3.53913e-5
234.000, 3.56410e-5
234.500, 3.58950e-5
235.000, 3.61581e-5
235.500, 3.64317e-5
236.000, 3.67178e-5
236.500, 3.70202e-5
237.000, 3.73398e-5
237.500, 3.76622e-5
238.000, 3.79982e-5
238.500, 3.83548e-5
239.000, 3.87236e-5
239.500, 3.91015e-5
240.000, 3.94784e-5
240.500, 3.98523e-5
241.000, 4.02368e-5
241.500, 4.06335e-5
242.000, 4.10419e-5
242.500, 4.14561e-5
243.000, 4.18837e-5
243.500, 4.23267e-5
244.000, 4.27843e-5
244.500, 4.32454e-5
245.000, 4.37183e-5
245.500, 4.41948e-5
246.000, 4.46876e-5
246.500, 4.51844e-5
247.000, 4.57059e-5
247.500, 4.62424e-5
248.000, 4.67930e-5
248.500, 4.73491e-5
249.000, 4.79066e-5
249.500, 4.84565e-5
250.000, 4.90189e-5
250.500, 4.96075e-5
251.000, 5.02147e-5
251.500, 5.08328e-5
252.000, 5.14568e-5
252.500, 5.20816e-5
253.000, 5.26979e-5
253.500, 5.33513e-5
254.000, 5.40251e-5
254.500, 5.47045e-5
255.000, 5.53928e-5
255.500, 5.60808e-5
256.000, 5.67663e-5
256.500, 5.74734e-5
257.000, 5.81890e-5
257.500, 5.89112e-5
258.000, 5.96367e-5
258.500, 6.03602e-5
259.000, 6.11089e-5
259.500, 6.18727e-5
260.000, 6.26543e-5
260.500, 6.34449e-5
261.000, 6.42245e-5
261.500, 6.49985e-5
262.000, 6.57856e-5
262.500, 6.65789e-5
263.000, 6.73790e-5
263.500, 6.81955e-5
264.000, 6.90294e-5
264.500, 6.98741e-5
265.000, 7.07243e-5
265.500, 7.15711e-5
266.000, 7.24163e-5
266.500, 7.32695e-5
267.000, 7.41338e-5
267.500, 7.49996e-5
268.000, 7.58792e-5
268.500, 7.67772e-5
269.000, 7.76894e-5
269.500, 7.86033e-5
270.000, 7.95168e-5
270.500, 8.04278e-5
271.000, 8.13441e-5
271.500, 8.22763e-5
272.000, 8.32105e-5
272.500, 8.41690e-5
273.000, 8.51369e-5
273.500, 8.61122e-5
274.000, 8.70869e-5
274.500, 8.80660e-5
275.000, 8.90395e-5
275.500, 9.00266e-5
276.000, 9.10186e-5
276.500, 9.20304e-5
277.000, 9.30716e-5
277.500, 9.41388e-5
278.000, 9.52166e-5
278.500, 9.62900e-5
279.000, 9.73521e-5
279.500, 9.84037e-5
280.000, 9.94844e-5
280.500, 1.00578e-4
281.000, 1.01687e-4
281.500, 1.02806e-4
282.000, 1.03913e-4
282.500, 1.05007e-4
283.000, 1.06103e-4
283.500, 1.07217e-4
284.000, 1.08348e-4
284.500, 1.09493e-4
285.000, 1.10644e-4
285.500, 1.11794e-4
286.000, 1.12926e-4
286.500, 1.14078e-4
287.000, 1.15253e-4
287.500, 1.16445e-4
288.000, 1.17647e-4
288.500, 1.18850e-4
289.000, 1.20042e-4
289.500, 1.21230e-4
290.000, 1.22460e-4
290.500, 1.23714e-4
291.000, 1.24976e-4
291.500, 1.26246e-4
292.000, 1.27508e-4
292.500, 1.28749e-4
293.000, 1.30030e-4
293.500, 1.31326e-4
294.000, 1.32623e-4
294.500, 1.33930e-4
295.000, 1.35233e-4
295.500, 1.36520e-4
296.000, 1.37834e-4
296.500, 1.39160e-4
297.000, 1.40491e-4
297.500, 1.41846e-4
298.000, 1.43213e-4
298.500, 1.44595e-4
299.000, 1.46020e-4
299.500, 1.47471e-4
300.000, 1.48906e-4
300.500, 1.50301e-4
301.000, 1.51639e-4
301.500, 1.52961e-4
302.000, 1.54301e-4
302.500, 1.55662e-4
303.000, 1.57032e-4
303.500, 1.58407e-4
304.000, 1.59791e-4
304.500, 1.61216e-4
305.000, 1.62651e-4
305.500, 1.64115e-4
306.000, 1.65601e-4
306.500, 1.67095e-4
307.000, 1.68690e-4
307.500, 1.70445e-4
308.000, 1.72259e-4
308.500, 1.74054e-4
309.000, 1.75764e-4
309.500, 1.77338e-4
310.000, 1.78855e-4
310.500, 1.80400e-4
311.000, 1.81947e-4
311.500, 1.83501e-4
312.000, 1.85084e-4
312.500, 1.86676e-4
313.000, 1.88270e-4
313.500, 1.89870e-4
314.000, 1.91497e-4
314.500, 1.93182e-4
315.000, 1.95146e-4
315.500, 1.97272e-4
316.000, 1.99466e-4
316.500, 2.01585e-4
317.000, 2.03550e-4
317.500, 2.05338e-4
318.000, 2.07210e-4
318.500, 2.09099e-4
319.000, 2.11017e-4
319.500, 2.12923e-4
320.000, 2.14858e-4
320.500, 2.16788e-4
321.000, 2.18747e-4
321.500, 2.20705e-4
322.000, 2.22680e-4
322.500, 2.24639e-4
323.000, 2.26625e-4
323.500, 2.28597e-4
324.000, 2.30601e-4
324.500, 2.32613e-4
325.000, 2.34651e-4
325.500, 2.36696e-4
326.000, 2.38777e-4
326.500, 2.40859e-4
327.000, 2.42961e-4
327.500, 2.45063e-4
328.000, 2.47181e-4
328.500, 2.49277e-4
329.000, 2.51293e-4
329.500, 2.53190e-4
330.000, 2.54954e-4
330.500, 2.56631e-4
331.000, 2.58307e-4
331.500, 2.59986e-4
332.000, 2.61700e-4
332.500, 2.63815e-4
333.000, 2.66202e-4
333.500, 2.68707e-4
334.000, 2.71127e-4
334.500, 2.73251e-4
335.000, 2.75115e-4
335.500, 2.77272e-4
336.000, 2.79620e-4
336.500, 2.82226e-4
337.000, 2.85020e-4
337.500, 2.87779e-4
338.000, 2.90402e-4
338.500, 2.92982e-4
339.000, 2.95418e-4
339.500, 2.97813e-4
340.000, 3.00250e-4
340.500, 3.02687e-4
341.000, 3.05111e-4
341.500, 3.07543e-4
342.000, 3.09969e-4
342.500, 3.12384e-4
343.000, 3.14850e-4
343.500, 3.17367e-4
344.000, 3.19893e-4
344.500, 3.22476e-4
345.000, 3.25090e-4
345.500, 3.27685e-4
346.000, 3.30304e-4
346.500, 3.32934e-4
347.000, 3.35527e-4
347.500, 3.38059e-4
348.000, 3.40454e-4
348.500, 3.42722e-4
349.000, 3.45187e-4
349.500, 3.47895e-4
350.000, 3.50776e-4
350.500, 3.53727e-4
351.000, 3.56549e-4
351.500, 3.59165e-4
352.000, 3.61824e-4
352.500, 3.64536e-4
353.000, 3.67267e-4
353.500, 3.70068e-4
354.000, 3.72861e-4
354.500, 3.75616e-4
355.000, 3.78351e-4
355.500, 3.81070e-4
356.000, 3.83784e-4
356.500, 3.86505e-4
357.000, 3.89204e-4
357.500, 3.91955e-4
358.000, 3.94705e-4
358.500, 3.97452e-4
359.000, 4.00207e-4
359.500, 4.02963e-4
360.000, 4.05731e-4
360.500, 4.08570e-4
361.000, 4.11497e-4
361.500, 4.14271e-4
362.000, 4.16546e-4
362.500, 4.18159e-4
363.000, 4.19114e-4
363.500, 4.19333e-4
364.000, 4.20808e-4
364.500, 4.23828e-4
365.000, 4.27947e-4
365.500, 4.31679e-4
366.000, 4.35714e-4
366.500, 4.40054e-4
